File: SHARED_FOLDER/Scripts/test1_tga.csv
s,C,g/g,g/g,g/g,g/g,g/g,g/g,1/s,1/s,1/s,1/s,1/s,1/s,W/g,W/g
Time,Temp,Total Mass,LB Mass,MOISTURE Mass,LB_int Mass,LB_char1 Mass,LB_char2 Mass,Total MLR,LB MLR,MOISTURE MLR,LB_int MLR,LB_char1 MLR,LB_char2 MLR,MCC,DSC
 0.01, 20.0165, 1, 0.98, 0.0199999, 1.51002e-15, 1.65389e-37, 0.0000000E+000, 7.97923e-06, 1.59603e-13, 7.97923e-06,-1.51002e-13,-1.65389e-35, 0.0000000E+000, 0.0000000E+000, 3.30916
 3, 23.0045, 0.999975, 0.98, 0.0199749, 5.85545e-13, 1.45243e-32, 0.0000000E+000, 8.78529e-06, 2.60727e-13, 8.78529e-06,-2.46677e-13,-1.29629e-32, 0.0000000E+000, 0.0000000E+000, 1.00122
 6, 26.0045, 0.999947, 0.98, 0.0199472, 1.53784e-12, 1.18085e-31, 0.0000000E+000, 9.65433e-06, 4.22128e-13, 9.65433e-06,-3.9938e-13,-6.79356e-32, 0.0000000E+000, 0.0000000E+000, 1.0012
 9, 29.0045, 0.999917, 0.98, 0.0199169, 3.07164e-12, 5.61236e-31, 0.0000000E+000, 1.05877e-05, 6.76937e-13, 1.05877e-05,-6.40457e-13,-2.67082e-31, 0.0000000E+000, 0.0000000E+000, 1.00117
 12, 32.0045, 0.999884, 0.98, 0.0198836, 5.51892e-12, 2.17162e-30, 0.0000000E+000, 1.15883e-05, 1.07552e-12, 1.15883e-05,-1.01756e-12,-9.32037e-31, 0.0000000E+000, 0.0000000E+000, 1.00113
 15, 35.0045, 0.999847, 0.98, 0.0198473, 9.3882e-12, 7.55436e-30, 0.0000000E+000, 1.26586e-05, 1.69346e-12, 1.26586e-05,-1.6022e-12,-3.03986e-30, 0.0000000E+000, 0.0000000E+000, 1.0011
 18, 38.0045, 0.999808, 0.98, 0.0198076, 1.54518e-11, 2.46195e-29, 0.0000000E+000, 1.38015e-05, 2.64318e-12, 1.38015e-05,-2.50074e-12,-9.47302e-30, 0.0000000E+000, 0.0000000E+000, 1.00106
 21, 41.0045, 0.999764, 0.98, 0.0197644, 2.48725e-11, 7.6691e-29, 0.0000000E+000, 1.50194e-05, 4.09061e-12, 1.50194e-05,-3.87017e-12,-2.85216e-29, 0.0000000E+000, 0.0000000E+000, 1.00101
 24, 44.0045, 0.999717, 0.98, 0.0197174, 3.93872e-11, 2.30821e-28, 0.0000000E+000, 1.63148e-05, 6.27856e-12, 1.63148e-05,-5.94022e-12,-8.34853e-29, 0.0000000E+000, 0.0000000E+000, 1.00097
 27, 47.0045, 0.999666, 0.98, 0.0196664, 6.15691e-11, 6.75417e-28, 0.0000000E+000, 1.76899e-05, 9.55972e-12, 1.76899e-05,-9.04456e-12,-2.38461e-28, 0.0000000E+000, 0.0000000E+000, 1.00092
 30, 50.0045, 0.999611, 0.98, 0.0196111, 9.52016e-11, 1.92879e-27, 0.0000000E+000, 1.9147e-05, 1.44424e-11, 1.9147e-05,-1.36641e-11,-6.6625e-28, 0.0000000E+000, 0.0000000E+000, 1.00086
 33, 53.0045, 0.999551, 0.98, 0.0195514, 1.45805e-10, 5.38864e-27, 0.0000000E+000, 2.06879e-05, 2.1654e-11, 2.06879e-05,-2.04871e-11,-1.8238e-27, 0.0000000E+000, 0.0000000E+000, 1.0008
 36, 56.0045, 0.999487, 0.98, 0.0194869, 2.21376e-10, 1.4753e-26, 0.0000000E+000, 2.23144e-05, 3.22278e-11, 2.23144e-05,-3.04911e-11,-4.89722e-27, 0.0000000E+000, 0.0000000E+000, 1.00074
 39, 59.0045, 0.999417, 0.98, 0.0194174, 3.33416e-10, 3.96292e-26, 0.0000000E+000, 2.4028e-05, 4.76215e-11, 2.4028e-05,-4.50552e-11,-1.29106e-26, 0.0000000E+000, 0.0000000E+000, 1.00067
 42, 62.0045, 0.999343, 0.98, 0.0193426, 4.98353e-10, 1.04539e-25, 0.0000000E+000, 2.583e-05, 6.98778e-11, 2.583e-05,-6.61121e-11,-3.34415e-26, 0.0000000E+000, 0.0000000E+000, 1.00059
 45, 65.0045, 0.999262, 0.98, 0.0192623, 7.39495e-10, 2.71015e-25, 0.0000000E+000, 2.77212e-05, 1.01841e-10, 2.77212e-05,-9.63524e-11,-8.51598e-26, 0.0000000E+000, 0.0000000E+000, 1.00051
 48, 68.0045, 0.999176, 0.98, 0.0191762, 1.08969e-09, 6.90917e-25, 0.0000000E+000, 2.97022e-05, 1.47443e-10, 2.97022e-05,-1.39498e-10,-2.13319e-25, 0.0000000E+000, 0.0000000E+000, 1.00042
 51, 71.0045, 0.999084, 0.98, 0.019084, 1.59496e-09, 1.73306e-24, 0.0000000E+000, 3.17733e-05, 2.12094e-10, 3.17733e-05,-2.00664e-10,-5.25877e-25, 0.0000000E+000, 0.0000000E+000, 1.00033
 54, 74.0045, 0.998985, 0.98, 0.0189854, 2.31934e-09, 4.27922e-24, 0.0000000E+000, 3.39342e-05, 3.0318e-10, 3.39342e-05,-2.86842e-10,-1.27642e-24, 0.0000000E+000, 0.0000000E+000, 1.00023
 57, 77.0045, 0.99888, 0.98, 0.0188803, 3.35145e-09, 1.04058e-23, 0.0000000E+000, 3.61845e-05, 4.3074e-10, 3.61844e-05,-4.07528e-10,-3.05172e-24, 0.0000000E+000, 0.0000000E+000, 1.00013
 60, 80.0045, 0.998768, 0.98, 0.0187682, 4.81314e-09, 2.493e-23, 0.0000000E+000, 3.85229e-05, 6.08329e-10, 3.85228e-05,-5.75547e-10,-7.18966e-24, 0.0000000E+000, 0.0000000E+000, 1.00002
 63, 83.0045, 0.998649, 0.98, 0.018649, 6.8711e-09, 5.88682e-23, 0.0000000E+000, 4.09479e-05, 8.54154e-10, 4.09478e-05,-8.08124e-10,-1.66975e-23, 0.0000000E+000, 0.0000000E+000, 0.999896
 66, 86.0045, 0.998522, 0.98, 0.0185224, 9.75197e-09, 1.3706e-22, 0.0000000E+000, 4.34574e-05, 1.19254e-09, 4.34574e-05,-1.12827e-09,-3.82413e-23, 0.0000000E+000, 0.0000000E+000, 0.999769
 69, 89.0045, 0.998388, 0.98, 0.0183882, 1.37623e-08, 3.14751e-22, 0.0000000E+000, 4.60489e-05, 1.65579e-09, 4.60488e-05,-1.56656e-09,-8.63981e-23, 0.0000000E+000, 0.0000000E+000, 0.999635
 72, 92.0045, 0.998246, 0.98, 0.018246, 1.93146e-08, 7.13178e-22, 0.0000000E+000, 4.87189e-05, 2.28663e-09, 4.87188e-05,-2.16341e-09,-1.92625e-22, 0.0000000E+000, 0.0000000E+000, 0.999492
 75, 95.0045, 0.998096, 0.98, 0.0180958, 2.6961e-08, 1.59495e-21, 0.0000000E+000, 5.14637e-05, 3.14125e-09, 5.14635e-05,-2.97197e-09,-4.23935e-22, 0.0000000E+000, 0.0000000E+000, 0.999342
 78, 98.0045, 0.997937, 0.98, 0.0179372, 3.74366e-08, 3.52171e-21, 0.0000000E+000, 5.42788e-05, 4.29319e-09, 5.42785e-05,-4.06184e-09,-9.21298e-22, 0.0000000E+000, 0.0000000E+000, 0.999183
 81, 101.004, 0.99777, 0.98, 0.01777, 5.17158e-08, 7.67979e-21, 0.0000000E+000, 5.7159e-05, 5.83824e-09, 5.71586e-05,-5.52362e-09,-1.97765e-21, 0.0000000E+000, 0.0000000E+000, 0.999015
 84, 104.004, 0.997594, 0.98, 0.0175941, 7.10837e-08, 1.65448e-20, 0.0000000E+000, 6.00984e-05, 7.90059e-09, 6.0098e-05,-7.47483e-09,-4.19441e-21, 0.0000000E+000, 0.0000000E+000, 0.998839
 87, 107.004, 0.997409, 0.98, 0.0174093, 9.72272e-08, 3.52224e-20, 0.0000000E+000, 6.30906e-05, 1.06405e-08, 6.309e-05,-1.00671e-08,-8.79207e-21, 0.0000000E+000, 0.0000000E+000, 0.998654
 90, 110.004, 0.997216, 0.98, 0.0172155, 1.32351e-07, 7.41206e-20, 0.0000000E+000, 6.61282e-05, 1.4264e-08, 6.61275e-05,-1.34954e-08,-1.82192e-20, 0.0000000E+000, 0.0000000E+000, 0.99846
 93, 113.004, 0.997012, 0.98, 0.0170125, 1.79322e-07, 1.54219e-19, 0.0000000E+000, 6.92035e-05, 1.90346e-08, 6.92024e-05,-1.80089e-08,-3.73336e-20, 0.0000000E+000, 0.0000000E+000, 0.998256
 96, 116.004, 0.9968, 0.98, 0.0168002, 2.41856e-07, 3.17345e-19, 0.0000000E+000, 7.23076e-05, 2.52879e-08, 7.23062e-05,-2.39252e-08,-7.56687e-20, 0.0000000E+000, 0.0000000E+000, 0.998044
 99, 119.004, 0.996579, 0.98, 0.0165786, 3.24744e-07, 6.45993e-19, 0.0000000E+000, 7.54313e-05, 3.34499e-08, 7.54295e-05,-3.16474e-08,-1.51735e-19, 0.0000000E+000, 0.0000000E+000, 0.997822
 102, 122.004, 0.996348, 0.98, 0.0163476, 4.3414e-07, 1.28977e-18, 6.8103e-21, 7.85645e-05, 4.40588e-08, 7.85622e-05,-4.16845e-08,-2.93503e-19,-4.54434e-21, 0.0000000E+000, 0.99759
 105, 125.004, 0.996107, 0.979999, 0.0161072, 5.77916e-07, 2.54894e-18, 2.68648e-20, 8.16966e-05, 5.77919e-08, 8.16935e-05,-5.46775e-08,-5.75745e-19,-9.38229e-21, 0.0000000E+000, 0.997349
 108, 128.004, 0.995857, 0.979999, 0.0158574, 7.66106e-07, 5.00499e-18, 6.81129e-20, 8.48162e-05, 7.54986e-08, 8.48121e-05,-7.143e-08,-1.118e-18,-1.92336e-20, 0.0000000E+000, 0.997099
 111, 131.004, 0.995598, 0.979999, 0.0155983, 1.01144e-06, 9.748e-18, 1.52264e-19, 8.79113e-05, 9.82397e-08, 8.7906e-05,-9.29457e-08,-2.14963e-18,-3.90843e-20, 0.0000000E+000, 0.996839
 114, 134.004, 0.99533, 0.979999, 0.01533, 1.33003e-06, 1.88187e-17, 3.22367e-19, 9.09697e-05, 1.27336e-07, 9.09628e-05,-1.20474e-07,-4.0935e-18,-7.86747e-20, 0.0000000E+000, 0.99657
 117, 137.004, 0.995052, 0.979998, 0.0150526, 1.74215e-06, 3.60014e-17, 6.62928e-19, 9.39782e-05, 1.64424e-07, 9.39693e-05,-1.55564e-07,-7.72201e-18,-1.56841e-19, 0.0000000E+000, 0.996292
 120, 140.004, 0.994766, 0.979998, 0.0147662, 2.27327e-06, 6.82495e-17, 1.33818e-18, 9.69235e-05, 2.11528e-07, 9.69121e-05,-2.00129e-07,-1.44332e-17,-3.0965e-19, 0.0000000E+000, 0.996005
 123, 143.004, 0.994471, 0.979997, 0.0144711, 2.95524e-06, 1.28223e-16, 2.6642e-18, 9.97919e-05, 2.7114e-07, 9.97773e-05,-2.56529e-07,-2.67346e-17,-6.05504e-19, 0.0000000E+000, 0.99571
 126, 146.004, 0.994167, 0.979996, 0.0141676, 3.82779e-06, 2.3877e-16, 5.24352e-18, 0.000102569, 3.46319e-07, 0.000102551,-3.27656e-07,-4.90849e-17,-1.1729e-18, 0.0000000E+000, 0.995406
 129, 149.004, 0.993856, 0.979995, 0.0138559, 4.94022e-06, 4.40765e-16, 1.02141e-17, 0.000105242, 4.40805e-07, 0.000105218,-4.17051e-07,-8.93444e-17,-2.251e-18, 0.0000000E+000, 0.995093
 132, 152.004, 0.993536, 0.979993, 0.0135364, 6.35365e-06, 8.06721e-16, 1.97052e-17, 0.000107795, 5.59164e-07, 0.000107765,-5.29031e-07,-1.61253e-16,-4.28095e-18, 0.0000000E+000, 0.994773
 135, 155.004, 0.993209, 0.979991, 0.0132094, 8.14347e-06, 1.4642e-15, 3.76662e-17, 0.000110216, 7.06942e-07, 0.000110177,-6.68846e-07,-2.88633e-16,-8.06923e-18, 0.0000000E+000, 0.994445
 138, 158.004, 0.992875, 0.979989, 0.0128755, 1.04024e-05, 2.63578e-15, 7.13572e-17, 0.000112488, 8.90863e-07, 0.00011244,-8.42855e-07,-5.12455e-16,-1.50775e-17, 0.0000000E+000, 0.994111
 141, 161.004, 0.992534, 0.979986, 0.0125349, 1.32444e-05, 4.70678e-15, 1.34011e-16, 0.0001146, 1.11905e-06, 0.00011454,-1.05875e-06,-9.02624e-16,-2.79323e-17, 0.0000000E+000, 0.993769
 144, 164.004, 0.992187, 0.979982, 0.0121884, 1.68084e-05, 8.33896e-15, 2.49544e-16, 0.000116538, 1.40129e-06, 0.000116462,-1.32578e-06,-1.5775e-15,-5.13143e-17, 0.0000000E+000, 0.993422
 147, 167.004, 0.991835, 0.979978, 0.0118363, 2.12642e-05, 1.46602e-14, 4.60825e-16, 0.000118289, 1.74935e-06, 0.000118195,-1.65508e-06,-2.73597e-15,-9.3497e-17, 0.0000000E+000, 0.993069
 150, 170.004, 0.991478, 0.979972, 0.0114794, 2.68181e-05, 2.55787e-14, 8.44076e-16, 0.000119841, 2.1773e-06, 0.000119724,-2.05997e-06,-4.70974e-15,-1.68987e-16, 0.0000000E+000, 0.992711
 153, 173.004, 0.991116, 0.979964, 0.0111182, 3.37199e-05, 4.42983e-14, 1.53375e-15, 0.000121184, 2.70198e-06, 0.000121039,-2.55637e-06,-8.04807e-15,-3.03024e-16, 0.0000000E+000, 0.992349
 156, 176.004, 0.990751, 0.979955, 0.0107534, 4.22721e-05, 7.61608e-14, 2.76519e-15, 0.000122308, 3.34342e-06, 0.000122128,-3.16325e-06,-1.36539e-14,-5.39178e-16, 0.0000000E+000, 0.991983
 159, 179.004, 0.990383, 0.979944, 0.0103857, 5.2839e-05, 1.30008e-13, 4.94715e-15, 0.000123203, 4.12546e-06, 0.000122981,-3.90314e-06,-2.30013e-14,-9.52107e-16, 0.0000000E+000, 0.991613
 162, 182.004, 0.990012, 0.97993, 0.0100157, 6.58588e-05, 2.20377e-13, 8.7844e-15, 0.000123864, 5.07632e-06, 0.00012359,-4.80276e-06,-3.84801e-14,-1.66879e-15, 0.0000000E+000, 0.991242
 165, 185.004, 0.98964, 0.979913, 0.00964436, 8.18567e-05, 3.70999e-13, 1.54831e-14, 0.000124283, 6.22938e-06, 0.000123947,-5.89368e-06,-6.39394e-14,-2.90361e-15, 0.0000000E+000, 0.990869
 168, 188.004, 0.989267, 0.979893, 0.0092723, 0.000101461, 6.20368e-13, 2.70926e-14, 0.000124457, 7.62398e-06, 0.000124046,-7.21313e-06,-1.05536e-13,-5.016e-15, 0.0000000E+000, 0.990495
 171, 191.004, 0.988893, 0.979867, 0.00890035, 0.000125422, 1.0305e-12, 4.70709e-14, 0.000124384, 9.30642e-06, 0.000123882,-8.80491e-06,-1.73059e-13,-8.60436e-15, 0.0000000E+000, 0.990121
 174, 194.004, 0.98852, 0.979837, 0.00852928, 0.000154632, 1.7007e-12, 8.12118e-14, 0.000124063, 1.1331e-05, 0.000123453,-1.07204e-05,-2.81964e-13,-1.46581e-14, 0.0000000E+000, 0.989748
 177, 197.004, 0.988149, 0.979799, 0.0081599, 0.000190149, 2.78891e-12, 1.39158e-13, 0.000123498, 1.37613e-05, 0.000122756,-1.30197e-05,-4.56515e-13,-2.48022e-14, 0.0000000E+000, 0.989376
 180, 200.004, 0.98778, 0.979753, 0.00779302, 0.000233229, 4.54487e-12, 2.36848e-13, 0.000122691, 1.66716e-05, 0.000121793,-1.57732e-05,-7.34561e-13,-4.1688e-14, 0.0000000E+000, 0.989006
 183, 203.004, 0.987413, 0.979698, 0.00742942, 0.000285354, 7.36101e-12, 4.00464e-13, 0.00012165, 2.01485e-05, 0.000120564,-1.90627e-05,-1.17479e-12,-6.96131e-14, 0.0000000E+000, 0.988638
 186, 206.004, 0.98705, 0.979632, 0.00706991, 0.000348272, 1.18503e-11, 6.72723e-13, 0.000120384, 2.42924e-05, 0.000119075,-2.29833e-05,-1.86767e-12,-1.155e-13, 0.0000000E+000, 0.988275
 189, 209.004, 0.986691, 0.979552, 0.00671524, 0.000424038, 1.89648e-11, 1.1229e-12, 0.000118905, 2.922e-05, 0.000117331,-2.76454e-05,-2.95183e-12,-1.9043e-13, 0.0000000E+000, 0.987915
 192, 212.004, 0.986337, 0.979456, 0.00636619, 0.000515064, 3.01742e-11, 1.86262e-12, 0.000117229, 3.50665e-05, 0.000115339,-3.31767e-05,-4.63856e-12,-3.1203e-13, 0.0000000E+000, 0.98756
 195, 215.004, 0.985988, 0.97934, 0.00602347, 0.000624175, 4.7735e-11, 3.0707e-12, 0.000115371, 4.19875e-05, 0.000113109,-3.97249e-05,-7.24796e-12,-5.08179e-13, 0.0000000E+000, 0.987211
 198, 218.004, 0.985645, 0.979202, 0.00568779, 0.00075467, 7.50923e-11, 5.03181e-12, 0.000113354, 5.01629e-05, 0.000110651,-4.74596e-05,-1.12625e-11,-8.22695e-13, 0.0000000E+000, 0.986867
 201, 221.004, 0.985308, 0.979038, 0.00535981, 0.000910398, 1.17477e-10, 8.19656e-12, 0.000111201, 5.97991e-05, 0.000107978,-5.65765e-05,-1.74051e-11,-1.32407e-12, 0.0000000E+000, 0.986529
 204, 224.004, 0.984978, 0.978842, 0.00504015, 0.00109583, 1.8279e-10, 1.32741e-11, 0.000108938, 7.11328e-05, 0.000105105,-6.72995e-05,-2.67539e-11,-2.11871e-12, 0.0000000E+000, 0.986199
 207, 227.004, 0.984654, 0.978609, 0.00472939, 0.00131617, 2.82898e-10, 2.13739e-11, 0.000106597, 8.44353e-05, 0.000102047,-7.9885e-05,-4.09074e-11,-3.37107e-12, 0.0000000E+000, 0.985875
 210, 230.004, 0.984338, 0.978333, 0.00442807, 0.00157743, 4.35538e-10, 3.42226e-11, 0.00010421, 0.000100016, 9.882e-05,-9.46261e-05,-6.22243e-11,-5.33385e-12, 0.0000000E+000, 0.985558
 213, 233.004, 0.984029, 0.978006, 0.00413665, 0.00188658, 6.67083e-10, 5.44921e-11, 0.000101814, 0.000118228, 9.54428e-05,-0.000111856,-9.41668e-11,-8.39321e-12, 0.0000000E+000, 0.985248
 216, 236.004, 0.983727, 0.97762, 0.00385558, 0.00225163, 1.01654e-09, 8.62948e-11, 9.94503e-05, 0.000139472, 9.1934e-05,-0.000131955,-1.41792e-10,-1.31362e-11, 0.0000000E+000, 0.984946
 219, 239.004, 0.983432, 0.977165, 0.0035852, 0.00268182, 1.54135e-09, 1.35927e-10, 9.71623e-05, 0.000164202, 8.83132e-05,-0.000155353,-2.12449e-10,-2.04506e-11, 0.0000000E+000, 0.98465
 222, 242.004, 0.983144, 0.976631, 0.00332582, 0.00318778, 2.32562e-09, 2.12976e-10, 9.49982e-05, 0.000192933, 8.46006e-05,-0.000182535,-3.16768e-10,-3.16717e-11, 0.0000000E+000, 0.984362
 225, 245.004, 0.982862, 0.976003, 0.0030777, 0.00378166, 3.49199e-09, 3.31971e-10, 9.30097e-05, 0.000226246, 8.08166e-05,-0.000214052,-4.70048e-10,-4.87979e-11, 0.0000000E+000, 0.984079
 228, 248.004, 0.982586, 0.975268, 0.00284101, 0.00447738, 5.21837e-09, 5.14813e-10, 9.12526e-05, 0.000264793, 7.69818e-05,-0.000250521,-6.94208e-10,-7.48049e-11, 0.0000000E+000, 0.983803
 231, 251.004, 0.982315, 0.974408, 0.00261588, 0.00529082, 7.76169e-09, 7.94348e-10, 8.97872e-05, 0.000309307, 7.31169e-05,-0.000292636,-1.0205e-09,-1.14102e-10, 0.0000000E+000, 0.983531
 234, 254.004, 0.982047, 0.973404, 0.00240236, 0.00624007, 1.14912e-08, 1.2196e-09, 8.86779e-05, 0.00036061, 6.9242e-05,-0.000341172,-1.49327e-09,-1.73188e-10, 0.0000000E+000, 0.983263
 237, 257.004, 0.981782, 0.972236, 0.00220046, 0.00734566, 1.69354e-08, 1.8634e-09, 8.7994e-05, 0.000419616, 6.5377e-05,-0.000396996,-2.17517e-09,-2.61601e-10, 0.0000000E+000, 0.982997
 240, 260.004, 0.981518, 0.970877, 0.00201011, 0.00863089, 2.48466e-08, 2.83335e-09, 8.78097e-05, 0.000487342, 6.1541e-05,-0.000461069,-3.15431e-09,-3.93265e-10, 0.0000000E+000, 0.982733
 243, 263.004, 0.981255, 0.969301, 0.0018312, 0.0101221, 3.62921e-08, 4.28781e-09, 8.82041e-05, 0.000564915, 5.77521e-05,-0.000534458,-4.55401e-09,-5.88417e-10, 0.0000000E+000, 0.982469
 246, 266.004, 0.980989, 0.967476, 0.00166357, 0.0118489, 5.27779e-08, 6.4586e-09, 8.92617e-05, 0.000653578, 5.40276e-05,-0.000618337,-6.54613e-09,-8.76323e-10, 0.0000000E+000, 0.982202
 249, 269.004, 0.980718, 0.965366, 0.00150699, 0.0138448, 7.64208e-08, 9.68359e-09, 9.10728e-05, 0.000754698, 5.03836e-05,-0.000713998,-9.36909e-09,-1.29912e-09, 0.0000000E+000, 0.981932
 252, 272.004, 0.980441, 0.962933, 0.00136121, 0.0161471, 1.10182e-07, 1.44529e-08, 9.37331e-05, 0.000869767, 4.68346e-05,-0.000822853,-1.33521e-08,-1.91717e-09, 0.0000000E+000, 0.981654
 255, 275.004, 0.980155, 0.960131, 0.00122591, 0.0187978, 1.58188e-07, 2.14744e-08, 9.73444e-05, 0.00100041, 4.33939e-05,-0.000946434,-1.89478e-08,-2.8166e-09, 0.0000000E+000, 0.981367
 258, 278.004, 0.979856, 0.956912, 0.00110076, 0.0218434, 2.26161e-07, 3.17655e-08, 0.000102014, 0.00114837, 4.00733e-05,-0.0010864,-2.67756e-08,-4.11965e-09, 0.0000000E+000, 0.981068
 261, 281.004, 0.979542, 0.95322, 0.000985374, 0.0253358, 3.22002e-07, 4.67823e-08, 0.000107856, 0.00131554, 3.6883e-05,-0.00124452,-3.76793e-08,-5.9991e-09, 0.0000000E+000, 0.980753
 264, 284.004, 0.979208, 0.948995, 0.000879353, 0.0293322, 4.56574e-07, 6.85992e-08, 0.000114988, 0.0015039, 3.38314e-05,-0.00142268,-5.28031e-08,-8.698e-09, 0.0000000E+000, 0.980419
 267, 287.004, 0.97885, 0.944171, 0.000782269, 0.0338958, 6.44747e-07, 1.00158e-07, 0.000123535, 0.00171557, 3.09256e-05,-0.00162288,-7.36913e-08,-1.25567e-08, 0.0000000E+000, 0.980061
 270, 290.004, 0.978465, 0.938674, 0.000693677, 0.0390957, 9.06785e-07, 1.45614e-07, 0.000133625, 0.00195274, 2.81707e-05,-0.00184716,-1.02418e-07,-1.80494e-08, 0.0000000E+000, 0.979675
 273, 293.004, 0.978047, 0.932425, 0.000613117, 0.0450074, 1.27018e-06, 2.10805e-07, 0.000145388, 0.00221763, 2.55705e-05,-0.00209765,-1.41757e-07,-2.58344e-08, 0.0000000E+000, 0.979256
 276, 296.004, 0.977591, 0.925336, 0.000540123, 0.0517126, 1.77206e-06, 3.03904e-07, 0.000158958, 0.00251252, 2.31271e-05,-0.00237646,-1.95397e-07,-3.68202e-08, 0.0000000E+000, 0.978799
 279, 299.004, 0.977091, 0.917314, 0.000474221, 0.0592995, 2.46232e-06, 4.36293e-07, 0.000174466, 0.00283962, 2.08412e-05,-0.00268568,-2.68218e-07,-5.22555e-08, 0.0000000E+000, 0.978299
 282, 302.004, 0.976541, 0.90826, 0.000414941, 0.0678623, 3.40776e-06, 6.23759e-07, 0.000192042, 0.00320104, 1.87121e-05,-0.00302727,-3.66645e-07,-7.3848e-08, 0.0000000E+000, 0.977749
 285, 305.004, 0.975936, 0.898068, 0.000361814, 0.0775008, 4.69728e-06, 8.88094e-07, 0.000211807, 0.00359868, 1.67379e-05,-0.003403,-4.99092e-07,-1.03921e-07, 0.0000000E+000, 0.977142
 288, 308.004, 0.975268, 0.886626, 0.00031438, 0.0883199, 6.44872e-06, 1.25924e-06, 0.000233872, 0.00403415, 1.49155e-05,-0.00381437,-6.76508e-07,-1.45622e-07, 0.0000000E+000, 0.976474
 291, 311.004, 0.97453, 0.873819, 0.000272191, 0.100428, 8.8174e-06, 1.77814e-06, 0.000258335, 0.00450863, 1.32406e-05,-0.00426242,-9.1306e-07,-2.03189e-07, 0.0000000E+000, 0.975735
 294, 314.004, 0.973715, 0.85953, 0.00023481, 0.113936, 1.2007e-05, 2.50053e-06, 0.000285268, 0.00502271, 1.17083e-05,-0.00474764,-1.22697e-06,-2.82298e-07, 0.0000000E+000, 0.974919
 297, 317.004, 0.972816, 0.843638, 0.000201819, 0.128956, 1.62833e-05, 3.5019e-06, 0.000314718, 0.0055762, 1.03127e-05,-0.00526976,-1.64149e-06,-3.90517e-07, 0.0000000E+000, 0.974018
 300, 320.004, 0.971824, 0.826029, 0.000172817, 0.145596, 2.19907e-05, 4.88394e-06, 0.000346698, 0.00616795, 9.04736e-06,-0.00582758,-2.18615e-06,-5.37869e-07, 0.0000000E+000, 0.973025
 303, 323.004, 0.970733, 0.806589, 0.000147423, 0.16396, 2.95734e-05, 6.78304e-06, 0.000381178, 0.00679562, 7.90536e-06,-0.00641872,-2.89807e-06,-7.37551e-07, 0.0000000E+000, 0.971932
 306, 326.004, 0.969534, 0.785216, 0.000125279, 0.184144, 3.96005e-05, 9.38103e-06, 0.000418076, 0.00745544, 6.8794e-06,-0.00703941,-3.82361e-06,-1.00684e-06, 0.0000000E+000, 0.970732
 309, 329.004, 0.968222, 0.761823, 0.000106048, 0.206227, 5.27963e-05, 1.29191e-05, 0.000457259, 0.00814194, 5.96193e-06,-0.00768426,-5.02015e-06,-1.36819e-06, 0.0000000E+000, 0.969417
 312, 332.004, 0.966788, 0.736338, 8.94156e-05, 0.230273, 7.00759e-05, 1.77152e-05, 0.000498528, 0.00884775, 5.14528e-06,-0.00834596,-6.55801e-06,-1.85061e-06, 0.0000000E+000, 0.967982
 315, 335.004, 0.965228, 0.708719, 7.5091e-05, 0.256317, 9.25879e-05, 2.41863e-05, 0.000541623, 0.00956334, 4.42177e-06,-0.00901512,-8.52248e-06,-2.49128e-06, 0.0000000E+000, 0.96642
 318, 338.004, 0.963537, 0.678953, 6.28063e-05, 0.284366, 0.000121761, 3.28755e-05, 0.000586218, 0.0102769, 3.78377e-06,-0.00968009,-1.10159e-05,-3.3375e-06, 0.0000000E+000, 0.964726
 321, 341.004, 0.961709, 0.647067, 5.23163e-05, 0.314386, 0.000159361, 4.44858e-05, 0.00063193, 0.0109741, 3.22386e-06,-0.0103268,-1.41593e-05,-4.44894e-06, 0.0000000E+000, 0.962896
 324, 344.004, 0.959744, 0.613134, 4.33976e-05, 0.346299, 0.000207544, 5.99212e-05, 0.00067833, 0.0116385, 2.7348e-06,-0.0109389,-1.80943e-05,-5.90026e-06, 0.0000000E+000, 0.960928
 327, 347.004, 0.957639, 0.577281, 3.58481e-05, 0.379972, 0.000268924, 8.03357e-05, 0.000724964, 0.0122512, 2.3097e-06,-0.0114977,-2.29836e-05,-7.78398e-06, 0.0000000E+000, 0.95882
 330, 350.004, 0.955394, 0.539694, 2.9486e-05, 0.415217, 0.000346637, 0.000107192, 0.000771383, 0.0127914, 1.94196e-06,-0.0119828,-2.90108e-05,-1.02137e-05, 0.0000000E+000, 0.956572
 333, 353.004, 0.953011, 0.500622, 2.41486e-05, 0.451778, 0.000444397, 0.000142328, 0.000817185, 0.0132375, 1.6254e-06,-0.0123722,-3.63797e-05,-1.33272e-05, 0.0000000E+000, 0.954186
 336, 356.004, 0.950491, 0.460381, 1.96912e-05, 0.489336, 0.000566558, 0.000188039, 0.000862066, 0.0135671, 1.35423e-06,-0.0126438,-4.53104e-05,-1.72902e-05, 0.0000000E+000, 0.951663
 339, 359.005, 0.947839, 0.419355, 1.59857e-05, 0.527503, 0.000718152, 0.000247159, 0.000905887, 0.0137587, 1.1231e-06,-0.0127756,-5.60349e-05,-2.22992e-05, 0.0000000E+000, 0.949007
 342, 362.005, 0.945056, 0.377986, 1.29196e-05, 0.56583, 0.000904916, 0.000323165, 0.000948743, 0.013793, 9.27075e-07,-0.0127478,-6.87899e-05,-2.85842e-05, 0.0000000E+000, 0.946221
 345, 365.005, 0.942147, 0.33677, 1.03944e-05, 0.603812, 0.00113329, 0.000420276, 0.000991045, 0.0136544, 7.61657e-07,-0.0125439,-8.38076e-05,-3.64112e-05, 0.0000000E+000, 0.943307
 348, 368.005, 0.93911, 0.296245, 8.32464e-06, 0.640903, 0.0014104, 0.000543564, 0.00103359, 0.0133327, 6.22775e-07,-0.0121524,-0.000101304,-4.60832e-05, 0.0000000E+000, 0.940266
 351, 371.005, 0.935943, 0.256965, 6.6362e-06, 0.676529, 0.00174398, 0.000699066, 0.00107764, 0.0128248, 5.06767e-07,-0.0115683,-0.000121468,-5.794e-05, 0.0000000E+000, 0.937096
 354, 374.005, 0.93264, 0.219483, 5.2655e-06, 0.710116, 0.00214225, 0.000893894, 0.00112496, 0.012136, 4.10365e-07,-0.0107946,-0.000144449,-7.23567e-05, 0.0000000E+000, 0.933788
 357, 377.005, 0.929187, 0.184323, 4.15819e-06, 0.74111, 0.00261383, 0.00113633, 0.00117785, 0.0112808, 3.30669e-07,-0.0098432,-0.000170342,-8.9741e-05, 0.0000000E+000, 0.930331
 360, 380.005, 0.925564, 0.15195, 3.26807e-06, 0.769007, 0.00316753, 0.00143593, 0.00123912, 0.0102836, 2.6513e-07,-0.00873502,-0.000199187,-0.000110529, 0.0000000E+000, 0.926703
 363, 383.005, 0.92174, 0.122741, 2.55609e-06, 0.793381, 0.00381218, 0.00180359, 0.00131205, 0.00917748, 2.11517e-07,-0.0074995,-0.000230961,-0.000135177, 0.0000000E+000, 0.922874
 366, 386.005, 0.917676, 0.096965, 1.98948e-06, 0.813901, 0.00455648, 0.0022516, 0.00140027, 0.00800286, 1.67891e-07,-0.00617301,-0.000265584,-0.000164161, 0.0000000E+000, 0.918804
 369, 389.005, 0.913319, 0.0747596, 1.54083e-06, 0.830355, 0.00540877, 0.00279369, 0.0015076, 0.0068047, 1.32583e-07,-0.00479634,-0.000302926,-0.000197966, 0.0000000E+000, 0.914441
 372, 392.005, 0.908606, 0.0561261, 1.18742e-06, 0.842657, 0.00637698, 0.00344507, 0.00163791, 0.0056291, 1.04161e-07,-0.00341138,-0.000342828,-0.00023708, 0.0000000E+000, 0.909722
 375, 395.005, 0.903463, 0.0409303, 9.10459e-07, 0.850841, 0.00746853, 0.00422239, 0.00179489, 0.00451937, 8.1406e-08,-0.00205744,-0.000385118,-0.000281995, 0.0000000E+000, 0.904572
 378, 398.005, 0.897805, 0.0289175, 6.94552e-07, 0.855052, 0.00869034, 0.00514382, 0.0019819, 0.00351222, 6.32879e-08,-0.000767553,-0.000429629,-0.000333204, 0.0000000E+000, 0.898906
 381, 401.005, 0.891537, 0.0197365, 5.27127e-07, 0.855522, 0.0100488, 0.00622895, 0.00220179, 0.00263461, 4.89415e-08, 0.000434539,-0.000476214,-0.000391198, 0.0000000E+000, 0.892629
 384, 404.005, 0.884556, 0.0129728, 3.97986e-07, 0.852534, 0.01155, 0.0074989, 0.0024568, 0.00190172, 3.76448e-08, 0.00153626,-0.000524738,-0.000456472, 0.0000000E+000, 0.885639
 387, 407.005, 0.876756, 0.0081847, 2.98911e-07, 0.846395, 0.0131996, 0.00897625, 0.00274854, 0.00131653, 2.87993e-08, 0.00253657,-0.000575067,-0.000529519, 0.0000000E+000, 0.877828
 390, 410.005, 0.868024, 0.0049388, 2.23314e-07, 0.837398, 0.0150026, 0.0106851, 0.00307793, 0.000870993, 2.19123e-08, 0.00344477,-0.000627023,-0.000610833, 0.0000000E+000, 0.869084
 393, 413.005, 0.858247, 0.0028393, 1.65946e-07, 0.825793, 0.0169636, 0.0126509, 0.00344524, 0.000548563, 1.65807e-08, 0.00427789,-0.000680331,-0.000700895, 0.0000000E+000, 0.859293
 396, 416.005, 0.847312, 0.00154868, 1.22651e-07, 0.811776, 0.019086, 0.0149006, 0.00385009, 0.000327539, 1.24768e-08, 0.00505724,-0.000734548,-0.000800154, 0.0000000E+000, 0.848342
 399, 419.005, 0.835106, 0.00079787, 9.01593e-08, 0.795474, 0.0213717, 0.0174624, 0.00429144, 0.000184579, 9.33622e-09, 0.00580484,-0.000788987,-0.000909001, 0.0000000E+000, 0.836119
 402, 422.005, 0.821524, 0.000386392, 6.59116e-08, 0.776952, 0.0238197, 0.0203656, 0.00476747, 9.77018e-05, 6.94679e-09, 0.00654013,-0.000842644,-0.00102772, 0.0000000E+000, 0.822518
 405, 425.005, 0.806464, 0.000174987, 4.79185e-08, 0.756223, 0.0264259, 0.02364, 0.00527543, 4.83259e-05, 5.13951e-09, 0.00727769,-0.000894139,-0.00115646, 0.0000000E+000, 0.807438
 408, 428.005, 0.789838, 7.36974e-05, 3.46429e-08, 0.733267, 0.0291811, 0.0273156, 0.00581141, 2.2213e-05, 3.78063e-09, 0.00802599,-0.000941672,-0.00129512, 0.0000000E+000, 0.790788
 411, 431.005, 0.771568, 2.86933e-05, 2.49042e-08, 0.708047, 0.0320702, 0.0314217, 0.00637007, 9.43198e-06, 2.76496e-09, 0.00878697,-0.000983007,-0.00144333, 0.0000000E+000, 0.772493
 414, 434.005, 0.751596, 1.02616e-05, 1.78015e-08, 0.680529, 0.0350707, 0.035986, 0.00694432, 3.67618e-06, 2.01038e-09, 0.00955645,-0.00101547,-0.00160035, 0.0000000E+000, 0.752494
 417, 437.005, 0.729889, 3.348e-06, 1.26516e-08, 0.650702, 0.0381513, 0.041033, 0.00752508, 1.30623e-06, 1.45314e-09, 0.0103247,-0.00103599,-0.00176496, 0.0000000E+000, 0.730757
 420, 440.005, 0.706445, 9.89246e-07, 8.93964e-09, 0.618589, 0.0412714, 0.0465833, 0.00810104, 4.20043e-07, 1.04415e-09, 0.0110772,-0.00104115,-0.00193543, 0.0000000E+000, 0.707281
 423, 443.005, 0.681296, 2.62642e-07, 6.27995e-09, 0.584265, 0.0443792, 0.0526509, 0.0086586, 1.21287e-07, 7.4579e-10, 0.0117952,-0.00102734,-0.00210942, 0.0000000E+000, 0.682098
 426, 446.005, 0.654522, 6.21328e-08, 4.38565e-09, 0.547867, 0.0474125, 0.0592421, 0.00918184, 3.11845e-08, 5.29485e-10, 0.0124566,-0.000990847,-0.00228392, 0.0000000E+000, 0.655289
 429, 449.005, 0.626252, 1.298e-08, 3.04462e-09, 0.509601, 0.0502976, 0.066353, 0.00965282, 7.07582e-09, 3.73639e-10, 0.0130362,-0.000928149,-0.00245524, 0.0000000E+000, 0.626981
 432, 452.005, 0.596672, 2.37171e-09, 2.10103e-09, 0.469753, 0.0529513, 0.0739676, 0.010052, 1.40335e-09, 2.62055e-10, 0.0135072,-0.000836159,-0.00261898, 0.0000000E+000, 0.597363
 435, 455.005, 0.566028, 3.75176e-10, 1.44116e-09, 0.428691, 0.0552819, 0.0820559, 0.0103592, 2.40805e-10, 1.82664e-10, 0.0138419,-0.000712601,-0.00277015, 0.0000000E+000, 0.56668
 438, 458.005, 0.534627, 5.08213e-11, 9.82537e-10, 0.386862, 0.0571928, 0.0905718, 0.0105542, 3.53616e-11, 1.26537e-10, 0.0140138,-0.000556408,-0.00290321, 0.0000000E+000, 0.535238
 441, 461.005, 0.502833, 5.82683e-12, 6.65771e-10, 0.344794, 0.0585865, 0.0994524, 0.0106185, 4.39243e-12, 8.7109e-11, 0.013999,-0.00036816,-0.00301235, 0.0000000E+000, 0.503404
 444, 464.005, 0.471062, 5.58462e-13, 4.48352e-10, 0.303074, 0.0593702, 0.108617, 0.0105371, 4.55817e-13, 5.95897e-11, 0.0137793,-0.000150503,-0.00309173, 0.0000000E+000, 0.471594
 447, 467.005, 0.439768, 4.41546e-14, 3.00062e-10, 0.262337, 0.0594627, 0.117968, 0.0102995, 3.89978e-14, 4.05062e-11, 0.0133438, 9.15209e-05,-0.00313588, 0.0000000E+000, 0.440263
 450, 470.005, 0.409428, 2.83955e-15, 1.99564e-10, 0.223234, 0.0588018, 0.127393, 0.00990228, 2.71223e-15, 2.73587e-11, 0.0126921, 0.00035029,-0.00314008, 0.0000000E+000, 0.409887
 453, 473.005, 0.380515, 1.46315e-16, 1.31889e-10, 0.186398, 0.0573517, 0.136765, 0.0093501, 1.51053e-16, 1.836e-11, 0.0118353, 0.000615674,-0.00310092, 0.0000000E+000, 0.38094
 456, 476.005, 0.353475, 5.94493e-18, 8.66112e-11, 0.152412, 0.0551107, 0.145952, 0.00865677, 6.62996e-18, 1.22415e-11, 0.010798, 0.000875418,-0.00301668, 0.0000000E+000, 0.35387
 459, 479.005, 0.3287, 8.35893e-19, 5.65141e-11, 0.121765, 0.0521159, 0.154819, 0.00784543, 0.0000000E+000, 8.10892e-12, 0.00961736, 0.0011159,-0.00288783, 0.0000000E+000, 0.329069
 462, 482.005, 0.306498, 8.35893e-19, 3.66385e-11, 0.0948154, 0.0484462, 0.163236, 0.00694769, 0.0000000E+000, 5.33626e-12, 0.00834166, 0.00132325,-0.00271723, 0.0000000E+000, 0.306843
 465, 485.005, 0.287071, 8.35893e-19, 2.35992e-11, 0.0717666, 0.0442205, 0.171084, 0.00600153, 0.0000000E+000, 3.48849e-12, 0.00702698, 0.00148478,-0.00251023, 0.0000000E+000, 0.287398
 468, 488.005, 0.270505, 8.35893e-19, 1.51013e-11, 0.0526465, 0.0395922, 0.178266, 0.00504829, 0.0000000E+000, 2.26541e-12, 0.00573227, 0.0015905,-0.00227448, 0.0000000E+000, 0.270815
 471, 491.005, 0.256757, 8.35893e-19, 9.60001e-12, 0.0373092, 0.0347386, 0.184709, 0.00412876, 0.0000000E+000, 1.46132e-12, 0.00451364, 0.00163454,-0.00201942, 0.0000000E+000, 0.257055
 474, 494.005, 0.245671, 8.35893e-19, 6.06246e-12, 0.0254523, 0.0298474, 0.190371, 0.00327914, 0.0000000E+000, 9.36297e-13, 0.00341853, 0.00161619,-0.00175558, 0.0000000E+000, 0.245959
 477, 497.005, 0.236992, 8.35893e-19, 3.80301e-12, 0.0166503, 0.0250997, 0.195242, 0.00252737, 0.0000000E+000, 5.95846e-13, 0.00248078, 0.00154023,-0.00149364, 0.0000000E+000, 0.237273
 480, 500.005, 0.230398, 8.35893e-19, 2.36967e-12, 0.0104008, 0.0206549, 0.199343, 0.00189071, 0.0000000E+000, 3.76607e-13, 0.0017177, 0.00141645,-0.00124344, 0.0000000E+000, 0.230674
 483, 503.005, 0.225533, 8.35893e-19, 1.46659e-12, 0.00617538, 0.0166368, 0.20272, 0.0013748, 0.0000000E+000, 2.36405e-13, 0.00112958, 0.00125833,-0.00101311, 0.0000000E+000, 0.225805
 486, 506.005, 0.222038, 8.35893e-19, 9.01522e-13, 0.00346758, 0.0131257, 0.205445, 0.000974675, 0.0000000E+000, 1.47375e-13, 0.000701969, 0.00108115,-0.000808447, 0.0000000E+000, 0.222308
 489, 509.005, 0.219585, 8.35893e-19, 5.50386e-13, 0.00183136, 0.0101558, 0.207598, 0.000677202, 0.0000000E+000, 9.12363e-14, 0.000409994, 0.000899839,-0.000632631, 0.0000000E+000, 0.219854
 492, 512.005, 0.217893, 8.35893e-19, 3.33707e-13, 0.00090431, 0.00771978, 0.209269, 0.000464445, 0.0000000E+000, 5.60883e-14, 0.000223721, 0.000727033,-0.000486309, 0.0000000E+000, 0.21816
 495, 515.005, 0.216735, 8.35893e-19, 2.00933e-13, 0.000414793, 0.00577748, 0.210543, 0.000317115, 0.0000000E+000, 3.42388e-14, 0.000113315, 0.000571827,-0.000368027, 0.0000000E+000, 0.217002
 498, 518.005, 0.215944, 8.35893e-19, 1.20145e-13, 0.000175488, 0.00426744, 0.211501, 0.000217359, 0.0000000E+000, 2.07534e-14, 5.29001e-05, 0.000439315,-0.000274856, 0.0000000E+000, 0.21621
 501, 521.005, 0.215399, 8.35893e-19, 7.13368e-14, 6.79563e-05, 0.00311856, 0.212212, 0.000150467, 0.0000000E+000, 1.24902e-14, 2.25881e-05, 0.000330952,-0.000203073, 0.0000000E+000, 0.215665
 504, 524.005, 0.21502, 8.35893e-19, 4.20584e-14, 2.38864e-05, 0.00225978, 0.212736, 0.000105438, 0.0000000E+000, 7.46337e-15, 8.74855e-06, 0.000245451,-0.000148761, 0.0000000E+000, 0.215285
 507, 527.005, 0.214753, 8.35893e-19, 2.46211e-14, 7.55221e-06, 0.00162665, 0.213118, 7.46838e-05, 0.0000000E+000, 4.42765e-15, 3.04575e-06, 0.000179883,-0.000108245, 0.0000000E+000, 0.215018
 510, 530.005, 0.214563, 8.35893e-19, 1.43106e-14, 2.12681e-06, 0.0011647, 0.213396, 5.32769e-05, 0.0000000E+000, 2.60774e-15, 9.43814e-07, 0.000130673,-7.83396e-05, 0.0000000E+000, 0.214828
 513, 533.005, 0.214427, 8.35893e-19, 8.25827e-15, 5.27816e-07, 0.000830218, 0.213596, 3.81235e-05, 0.0000000E+000, 1.52473e-15, 2.57564e-07, 9.43049e-05,-5.64389e-05, 0.0000000E+000, 0.214692
 516, 536.005, 0.21433, 8.35893e-19, 4.7313e-15, 1.14107e-07, 0.000589431, 0.21374, 2.72781e-05, 0.0000000E+000, 8.84996e-16, 6.11894e-08, 6.77122e-05,-4.04954e-05, 0.0000000E+000, 0.214594
 519, 539.005, 0.21426, 8.35893e-19, 2.69102e-15, 2.12219e-08, 0.000416903, 0.213843, 1.94778e-05, 0.0000000E+000, 5.09907e-16, 1.24975e-08, 4.84094e-05,-2.8944e-05, 0.0000000E+000, 0.214525
 522, 542.005, 0.214211, 8.35893e-19, 1.51942e-15, 3.34971e-09, 0.00029379, 0.213917, 1.38654e-05, 0.0000000E+000, 2.91626e-16, 2.16494e-09, 3.44733e-05,-2.06101e-05, 0.0000000E+000, 0.214476
 525, 545.005, 0.214175, 8.35893e-19, 8.51626e-16, 4.42193e-10, 0.000206277, 0.213969, 9.83549e-06, 0.0000000E+000, 1.6555e-16, 3.13457e-10, 2.44562e-05,-1.4621e-05, 0.0000000E+000, 0.21444
 528, 548.005, 0.214151, 8.35893e-19, 4.73818e-16, 4.80516e-11, 0.000144303, 0.214006, 6.95129e-06, 0.0000000E+000, 9.32789e-17, 3.73365e-11, 1.72849e-05,-1.03337e-05, 0.0000000E+000, 0.214415
 531, 551.005, 0.214133, 8.35893e-19, 2.61666e-16, 4.22522e-12, 0.000100579, 0.214032, 4.89458e-06, 0.0000000E+000, 5.21642e-17, 3.59644e-12, 1.21708e-05,-7.27621e-06, 0.0000000E+000, 0.214398
 534, 554.005, 0.214121, 8.35893e-19, 1.43431e-16, 2.95114e-13, 6.98457e-05, 0.214051, 3.43351e-06, 0.0000000E+000, 2.89521e-17, 2.75013e-13, 8.53771e-06,-5.1042e-06, 0.0000000E+000, 0.214385
 537, 557.005, 0.214112, 8.35893e-19, 7.80328e-17, 1.60488e-14, 4.83251e-05, 0.214064, 2.39954e-06, 0.0000000E+000, 1.59473e-17, 1.63642e-14, 5.96665e-06,-3.56712e-06, 0.0000000E+000, 0.214377
 540, 560.005, 0.214106, 8.35893e-19, 4.21343e-17, 6.65009e-16, 3.33119e-05, 0.214073, 1.67063e-06, 0.0000000E+000, 8.71731e-18, 7.41519e-16, 4.15416e-06,-2.48353e-06, 0.0000000E+000, 0.214371
 543, 563.005, 0.214102, 8.35893e-19, 2.25789e-17, 2.05131e-17, 2.28779e-05, 0.214079, 1.15875e-06, 0.0000000E+000, 4.72874e-18, 2.49992e-17, 2.88134e-06,-1.72258e-06, 0.0000000E+000, 0.214367
 546, 566.005, 0.214099, 8.35893e-19, 1.20077e-17, 8.29743e-19, 1.56538e-05, 0.214083, 8.00674e-07, 0.0000000E+000, 2.54543e-18, 0.0000000E+000, 1.99095e-06,-1.19027e-06, 0.0000000E+000, 0.214364
 549, 569.005, 0.214097, 8.35893e-19, 6.33709e-18, 8.29743e-19, 1.06709e-05, 0.214086, 5.51153e-07, 0.0000000E+000, 1.35961e-18, 0.0000000E+000, 1.37049e-06,-8.19337e-07, 0.0000000E+000, 0.214361
 552, 572.005, 0.214095, 8.35893e-19, 3.31878e-18, 8.29743e-19, 7.24706e-06, 0.214088, 3.77951e-07, 0.0000000E+000, 7.2059e-19, 0.0000000E+000, 9.39808e-07,-5.61857e-07, 0.0000000E+000, 0.21436
 555, 575.005, 0.214094, 8.35893e-19, 1.72468e-18, 8.29743e-19, 4.90337e-06, 0.21409, 2.58191e-07, 0.0000000E+000, 3.78937e-19, 0.0000000E+000, 6.42015e-07,-3.83824e-07, 0.0000000E+000, 0.214359
 558, 578.005, 0.214094, 8.35893e-19, 8.89335e-19, 8.29743e-19, 3.30518e-06, 0.214091, 1.75706e-07, 0.0000000E+000, 1.97713e-19, 0.0000000E+000, 4.36909e-07,-2.61203e-07, 0.0000000E+000, 0.214359
 561, 581.005, 0.214093, 8.35893e-19, 8.35691e-19, 8.29743e-19, 2.21953e-06, 0.214091, 1.19115e-07, 0.0000000E+000, 0.0000000E+000, 0.0000000E+000, 2.96191e-07,-1.77075e-07, 0.0000000E+000, 0.214358
 564, 584.005, 0.214093, 8.35893e-19, 8.35691e-19, 8.29743e-19, 1.48487e-06, 0.214092, 8.04416e-08, 0.0000000E+000, 0.0000000E+000, 0.0000000E+000, 2.00025e-07,-1.19583e-07, 0.0000000E+000, 0.214358
 567, 587.005, 0.214093, 8.35893e-19, 8.35691e-19, 8.29743e-19, 9.89625e-07, 0.214092, 5.41155e-08, 0.0000000E+000, 0.0000000E+000, 0.0000000E+000, 1.34563e-07,-8.04474e-08, 0.0000000E+000, 0.214358
 570, 590.005, 0.214093, 8.35893e-19, 8.35691e-19, 8.29743e-19, 6.57062e-07, 0.214092, 3.62649e-08, 0.0000000E+000, 0.0000000E+000, 0.0000000E+000, 9.01759e-08,-5.3911e-08, 0.0000000E+000, 0.214358
 573, 593.005, 0.214093, 8.35893e-19, 8.35691e-19, 8.29743e-19, 4.34601e-07, 0.214092, 2.42088e-08, 0.0000000E+000, 0.0000000E+000, 0.0000000E+000, 6.01973e-08,-3.59885e-08, 0.0000000E+000, 0.214358
 576, 596.005, 0.214093, 8.35893e-19, 8.35691e-19, 8.29743e-19, 2.86365e-07, 0.214092, 1.60982e-08, 0.0000000E+000, 0.0000000E+000, 0.0000000E+000, 4.00296e-08,-2.39314e-08, 0.0000000E+000, 0.214357
 579, 599.005, 0.214093, 8.35893e-19, 8.35691e-19, 8.29743e-19, 1.87971e-07, 0.214092, 1.06634e-08, 0.0000000E+000, 0.0000000E+000, 0.0000000E+000, 2.65154e-08,-1.5852e-08, 0.0000000E+000, 0.214357
 582, 602.005, 0.214093, 8.35893e-19, 8.35691e-19, 8.29743e-19, 1.22914e-07, 0.214092, 7.03597e-09, 0.0000000E+000, 0.0000000E+000, 0.0000000E+000, 1.74955e-08,-1.04596e-08, 0.0000000E+000, 0.214357
 585, 605.005, 0.214093, 8.35893e-19, 8.35691e-19, 8.29743e-19, 8.00651e-08, 0.214092, 4.62445e-09, 0.0000000E+000, 0.0000000E+000, 0.0000000E+000, 1.14991e-08,-6.87465e-09, 0.0000000E+000, 0.214357
 588, 608.005, 0.214093, 8.35893e-19, 8.35691e-19, 8.29743e-19, 5.19537e-08, 0.214092, 3.02761e-09, 0.0000000E+000, 0.0000000E+000, 0.0000000E+000, 7.52843e-09,-4.50081e-09, 0.0000000E+000, 0.214357
 591, 611.005, 0.214093, 8.35893e-19, 8.35691e-19, 8.29743e-19, 3.35829e-08, 0.214093, 1.97443e-09, 0.0000000E+000, 0.0000000E+000, 0.0000000E+000, 4.90959e-09,-2.93516e-09, 0.0000000E+000, 0.214357
 594, 614.005, 0.214093, 8.35893e-19, 8.35691e-19, 8.29743e-19, 2.16243e-08, 0.214093, 1.28257e-09, 0.0000000E+000, 0.0000000E+000, 0.0000000E+000, 3.18922e-09,-1.90665e-09, 0.0000000E+000, 0.214357
 597, 617.005, 0.214093, 8.35893e-19, 8.35691e-19, 8.29743e-19, 1.38703e-08, 0.214093, 8.2988e-10, 0.0000000E+000, 0.0000000E+000, 0.0000000E+000, 2.06357e-09,-1.23369e-09, 0.0000000E+000, 0.214357
 600, 620.005, 0.214093, 8.35893e-19, 8.35691e-19, 8.29743e-19, 8.86235e-09, 0.214093, 5.34861e-10, 0.0000000E+000, 0.0000000E+000, 0.0000000E+000, 1.32998e-09,-7.95117e-10, 0.0000000E+000, 0.214357
 603, 623.005, 0.214093, 8.35893e-19, 8.35691e-19, 8.29743e-19, 5.64059e-09, 0.214093, 3.43364e-10, 0.0000000E+000, 0.0000000E+000, 0.0000000E+000, 8.53805e-10,-5.10441e-10, 0.0000000E+000, 0.214357
 606, 626.005, 0.214093, 8.35893e-19, 8.35691e-19, 8.29743e-19, 3.57611e-09, 0.214093, 2.19561e-10, 0.0000000E+000, 0.0000000E+000, 0.0000000E+000, 5.45957e-10,-3.26396e-10, 0.0000000E+000, 0.214357
 609, 629.005, 0.214093, 8.35893e-19, 8.35691e-19, 8.29743e-19, 2.25842e-09, 0.214093, 1.39842e-10, 0.0000000E+000, 0.0000000E+000, 0.0000000E+000, 3.47729e-10,-2.07887e-10, 0.0000000E+000, 0.214358
 612, 632.005, 0.214093, 8.35893e-19, 8.35691e-19, 8.29743e-19, 1.4207e-09, 0.214093, 8.87156e-11, 0.0000000E+000, 0.0000000E+000, 0.0000000E+000, 2.20599e-10,-1.31883e-10, 0.0000000E+000, 0.214357
 615, 635.005, 0.214093, 8.35893e-19, 8.35691e-19, 8.29743e-19, 8.9023e-10, 0.214093, 5.60583e-11, 0.0000000E+000, 0.0000000E+000, 0.0000000E+000, 1.39394e-10,-8.33355e-11, 0.0000000E+000, 0.214357
 618, 638.005, 0.214093, 8.35893e-19, 8.35691e-19, 8.29743e-19, 5.55648e-10, 0.214093, 3.52821e-11, 0.0000000E+000, 0.0000000E+000, 0.0000000E+000, 8.77319e-11,-5.24498e-11, 0.0000000E+000, 0.214357
 621, 641.005, 0.214093, 8.35893e-19, 8.35691e-19, 8.29743e-19, 3.45456e-10, 0.214093, 2.21177e-11, 0.0000000E+000, 0.0000000E+000, 0.0000000E+000, 5.49975e-11,-3.28798e-11, 0.0000000E+000, 0.214357
 624, 644.005, 0.214093, 8.35893e-19, 8.35691e-19, 8.29743e-19, 2.13933e-10, 0.214093, 1.381e-11, 0.0000000E+000, 0.0000000E+000, 0.0000000E+000, 3.43398e-11,-2.05298e-11, 0.0000000E+000, 0.214357
 627, 647.005, 0.214093, 8.35893e-19, 8.35691e-19, 8.29743e-19, 1.31963e-10, 0.214093, 8.58846e-12, 0.0000000E+000, 0.0000000E+000, 0.0000000E+000, 2.13559e-11,-1.27675e-11, 0.0000000E+000, 0.214357
 630, 650.005, 0.214093, 8.35893e-19, 8.35691e-19, 8.29743e-19, 8.10803e-11, 0.214093, 5.31986e-12, 0.0000000E+000, 0.0000000E+000, 0.0000000E+000, 1.32283e-11,-7.90843e-12, 0.0000000E+000, 0.214358
 633, 653.005, 0.214093, 8.35893e-19, 8.35691e-19, 8.29743e-19, 4.96205e-11, 0.214093, 3.28206e-12, 0.0000000E+000, 0.0000000E+000, 0.0000000E+000, 8.16112e-12,-4.87906e-12, 0.0000000E+000, 0.214357
 636, 656.005, 0.214093, 8.35893e-19, 8.35691e-19, 8.29743e-19, 3.02474e-11, 0.214093, 2.01674e-12, 0.0000000E+000, 0.0000000E+000, 0.0000000E+000, 5.01481e-12,-2.99807e-12, 0.0000000E+000, 0.214357
 639, 659.005, 0.214093, 8.35893e-19, 8.35691e-19, 8.29743e-19, 1.83651e-11, 0.214093, 1.23428e-12, 0.0000000E+000, 0.0000000E+000, 0.0000000E+000, 3.06913e-12,-1.83486e-12, 0.0000000E+000, 0.214358
 642, 662.005, 0.214093, 8.35893e-19, 8.35691e-19, 8.29743e-19, 1.11065e-11, 0.214093, 7.52363e-13, 0.0000000E+000, 0.0000000E+000, 0.0000000E+000, 1.87081e-12,-1.11845e-12, 0.0000000E+000, 0.214357
 645, 665.005, 0.214093, 8.35893e-19, 8.35691e-19, 8.29743e-19, 6.69008e-12, 0.214093, 4.56766e-13, 0.0000000E+000, 0.0000000E+000, 0.0000000E+000, 1.13579e-12,-6.79023e-13, 0.0000000E+000, 0.214357
 648, 668.005, 0.214093, 8.35893e-19, 8.35691e-19, 8.29743e-19, 4.01382e-12, 0.214093, 2.76191e-13, 0.0000000E+000, 0.0000000E+000, 0.0000000E+000, 6.86774e-13,-4.10582e-13, 0.0000000E+000, 0.214357
 651, 671.005, 0.214093, 8.35893e-19, 8.35691e-19, 8.29743e-19, 2.39857e-12, 0.214093, 1.66331e-13, 0.0000000E+000, 0.0000000E+000, 0.0000000E+000, 4.13597e-13,-2.47265e-13, 0.0000000E+000, 0.214357
 654, 674.005, 0.214093, 8.35893e-19, 8.35691e-19, 8.29743e-19, 1.42762e-12, 0.214093, 9.97657e-14, 0.0000000E+000, 0.0000000E+000, 0.0000000E+000, 2.48076e-13,-1.4831e-13, 0.0000000E+000, 0.214357
 657, 677.005, 0.214093, 8.35893e-19, 8.35691e-19, 8.29743e-19, 8.46329e-13, 0.214093, 5.95981e-14, 0.0000000E+000, 0.0000000E+000, 0.0000000E+000, 1.48196e-13,-8.85977e-14, 0.0000000E+000, 0.214357
 660, 680.005, 0.214093, 8.35893e-19, 8.35691e-19, 8.29743e-19, 4.99719e-13, 0.214093, 3.54588e-14, 0.0000000E+000, 0.0000000E+000, 0.0000000E+000, 8.81713e-14,-5.27125e-14, 0.0000000E+000, 0.214357
 663, 683.005, 0.214093, 8.35893e-19, 8.35691e-19, 8.29743e-19, 2.93881e-13, 0.214093, 2.10113e-14, 0.0000000E+000, 0.0000000E+000, 0.0000000E+000, 5.22465e-14,-3.12351e-14, 0.0000000E+000, 0.214357
 666, 686.005, 0.214093, 8.35893e-19, 8.35691e-19, 8.29743e-19, 1.72137e-13, 0.214093, 1.23999e-14, 0.0000000E+000, 0.0000000E+000, 0.0000000E+000, 3.08335e-14,-1.84336e-14, 0.0000000E+000, 0.214357
 669, 689.005, 0.214093, 8.35893e-19, 8.35691e-19, 8.29743e-19, 1.00423e-13, 0.214093, 7.28821e-15, 0.0000000E+000, 0.0000000E+000, 0.0000000E+000, 1.81228e-14,-1.08346e-14, 0.0000000E+000, 0.214357
 672, 692.005, 0.214093, 8.35893e-19, 8.35691e-19, 8.29743e-19, 5.83501e-14, 0.214093, 4.26633e-15, 0.0000000E+000, 0.0000000E+000, 0.0000000E+000, 1.06086e-14,-6.34227e-15, 0.0000000E+000, 0.214357
 675, 695.005, 0.214093, 8.35893e-19, 8.35691e-19, 8.29743e-19, 3.37678e-14, 0.214093, 2.48724e-15, 0.0000000E+000, 0.0000000E+000, 0.0000000E+000, 6.18475e-15,-3.6975e-15, 0.0000000E+000, 0.214357
 678, 698.005, 0.214093, 8.35893e-19, 8.35691e-19, 8.29743e-19, 1.94631e-14, 0.214093, 1.44415e-15, 0.0000000E+000, 0.0000000E+000, 0.0000000E+000, 3.591e-15,-2.14685e-15, 0.0000000E+000, 0.214357
 681, 701.005, 0.214093, 8.35893e-19, 8.35691e-19, 8.29743e-19, 1.1173e-14, 0.214093, 8.35086e-16, 0.0000000E+000, 0.0000000E+000, 0.0000000E+000, 2.07651e-15,-1.24143e-15, 0.0000000E+000, 0.214357
 684, 704.005, 0.214093, 8.35893e-19, 8.35691e-19, 8.29743e-19, 6.38805e-15, 0.214093, 4.80924e-16, 0.0000000E+000, 0.0000000E+000, 0.0000000E+000, 1.19586e-15,-7.14935e-16, 0.0000000E+000, 0.214357
 687, 707.005, 0.214093, 8.35893e-19, 8.35691e-19, 8.29743e-19, 3.63757e-15, 0.214093, 2.75832e-16, 0.0000000E+000, 0.0000000E+000, 0.0000000E+000, 6.85881e-16,-4.10048e-16, 0.0000000E+000, 0.214357
 690, 710.005, 0.214093, 8.35893e-19, 8.35691e-19, 8.29743e-19, 2.06298e-15, 0.214093, 1.57556e-16, 0.0000000E+000, 0.0000000E+000, 0.0000000E+000, 3.91777e-16,-2.34221e-16, 0.0000000E+000, 0.214357
 693, 713.005, 0.214093, 8.35893e-19, 8.35691e-19, 8.29743e-19, 1.16525e-15, 0.214093, 8.96285e-17, 0.0000000E+000, 0.0000000E+000, 0.0000000E+000, 2.22869e-16,-1.3324e-16, 0.0000000E+000, 0.214357
 696, 716.005, 0.214093, 8.35893e-19, 8.35691e-19, 8.29743e-19, 6.55509e-16, 0.214093, 5.07779e-17, 0.0000000E+000, 0.0000000E+000, 0.0000000E+000, 1.26264e-16,-7.54858e-17, 0.0000000E+000, 0.214357
 699, 719.005, 0.214093, 8.35893e-19, 8.35691e-19, 8.29743e-19, 3.67261e-16, 0.214093, 2.86497e-17, 0.0000000E+000, 0.0000000E+000, 0.0000000E+000, 7.12401e-17,-4.25903e-17, 0.0000000E+000, 0.214357
 702, 722.005, 0.214093, 8.35893e-19, 8.35691e-19, 8.29743e-19, 2.04929e-16, 0.214093, 1.60984e-17, 0.0000000E+000, 0.0000000E+000, 0.0000000E+000, 4.003e-17,-2.39316e-17, 0.0000000E+000, 0.214357
 705, 725.005, 0.214093, 8.35893e-19, 8.35691e-19, 8.29743e-19, 1.13885e-16, 0.214093, 9.0086e-18, 0.0000000E+000, 0.0000000E+000, 0.0000000E+000, 2.24007e-17,-1.33921e-17, 0.0000000E+000, 0.214357
 708, 728.005, 0.214093, 8.35893e-19, 8.35691e-19, 8.29743e-19, 6.30314e-17, 0.214093, 5.02047e-18, 0.0000000E+000, 0.0000000E+000, 0.0000000E+000, 1.24838e-17,-7.46337e-18, 0.0000000E+000, 0.214357
 711, 731.005, 0.214093, 8.35893e-19, 8.35691e-19, 8.29743e-19, 3.47438e-17, 0.214093, 2.7864e-18, 0.0000000E+000, 0.0000000E+000, 0.0000000E+000, 6.92862e-18,-4.14222e-18, 0.0000000E+000, 0.214357
 714, 734.005, 0.214093, 8.35893e-19, 8.35691e-19, 8.29743e-19, 1.90733e-17, 0.214093, 1.54011e-18, 0.0000000E+000, 0.0000000E+000, 0.0000000E+000, 3.82961e-18,-2.2895e-18, 0.0000000E+000, 0.214357
 717, 737.005, 0.214093, 8.35893e-19, 8.35691e-19, 8.29743e-19, 1.0428e-17, 0.214093, 8.4775e-19, 0.0000000E+000, 0.0000000E+000, 0.0000000E+000, 2.108e-18,-1.26025e-18, 0.0000000E+000, 0.214357
 720, 740.005, 0.214093, 8.35893e-19, 8.35691e-19, 8.29743e-19, 5.67803e-18, 0.214093, 4.6472e-19, 0.0000000E+000, 0.0000000E+000, 0.0000000E+000, 1.15557e-18,-6.90846e-19, 0.0000000E+000, 0.214357
 723, 743.005, 0.214093, 8.35893e-19, 8.35691e-19, 8.29743e-19, 3.07906e-18, 0.214093, 2.537e-19, 0.0000000E+000, 0.0000000E+000, 0.0000000E+000, 6.30846e-19,-3.77146e-19, 0.0000000E+000, 0.214357
 726, 746.005, 0.214093, 8.35893e-19, 8.35691e-19, 8.29743e-19, 1.66288e-18, 0.214093, 1.37928e-19, 0.0000000E+000, 0.0000000E+000, 0.0000000E+000, 3.42971e-19,-2.05042e-19, 0.0000000E+000, 0.214357
 729, 749.005, 0.214093, 8.35893e-19, 8.35691e-19, 8.29743e-19, 8.94383e-19, 0.214093, 7.46775e-20, 0.0000000E+000, 0.0000000E+000, 0.0000000E+000, 1.85692e-19,-1.11015e-19, 0.0000000E+000, 0.214357
 732, 752.005, 0.214093, 8.35893e-19, 8.35691e-19, 8.29743e-19, 8.3693e-19, 0.214093, 0.0000000E+000, 0.0000000E+000, 0.0000000E+000, 0.0000000E+000, 0.0000000E+000, 0.0000000E+000, 0.0000000E+000, 0.214357
 735, 755.005, 0.214093, 8.35893e-19, 8.35691e-19, 8.29743e-19, 8.3693e-19, 0.214093, 0.0000000E+000, 0.0000000E+000, 0.0000000E+000, 0.0000000E+000, 0.0000000E+000, 0.0000000E+000, 0.0000000E+000, 0.214357
 738, 758.005, 0.214093, 8.35893e-19, 8.35691e-19, 8.29743e-19, 8.3693e-19, 0.214093, 0.0000000E+000, 0.0000000E+000, 0.0000000E+000, 0.0000000E+000, 0.0000000E+000, 0.0000000E+000, 0.0000000E+000, 0.214358
 741, 761.005, 0.214093, 8.35893e-19, 8.35691e-19, 8.29743e-19, 8.3693e-19, 0.214093, 0.0000000E+000, 0.0000000E+000, 0.0000000E+000, 0.0000000E+000, 0.0000000E+000, 0.0000000E+000, 0.0000000E+000, 0.214358
 744, 764.005, 0.214093, 8.35893e-19, 8.35691e-19, 8.29743e-19, 8.3693e-19, 0.214093, 0.0000000E+000, 0.0000000E+000, 0.0000000E+000, 0.0000000E+000, 0.0000000E+000, 0.0000000E+000, 0.0000000E+000, 0.214357
 747, 767.005, 0.214093, 8.35893e-19, 8.35691e-19, 8.29743e-19, 8.3693e-19, 0.214093, 0.0000000E+000, 0.0000000E+000, 0.0000000E+000, 0.0000000E+000, 0.0000000E+000, 0.0000000E+000, 0.0000000E+000, 0.214357
 750, 770.005, 0.214093, 8.35893e-19, 8.35691e-19, 8.29743e-19, 8.3693e-19, 0.214093, 0.0000000E+000, 0.0000000E+000, 0.0000000E+000, 0.0000000E+000, 0.0000000E+000, 0.0000000E+000, 0.0000000E+000, 0.214357
 753, 773.005, 0.214093, 8.35893e-19, 8.35691e-19, 8.29743e-19, 8.3693e-19, 0.214093, 0.0000000E+000, 0.0000000E+000, 0.0000000E+000, 0.0000000E+000, 0.0000000E+000, 0.0000000E+000, 0.0000000E+000, 0.214357
 756, 776.005, 0.214093, 8.35893e-19, 8.35691e-19, 8.29743e-19, 8.3693e-19, 0.214093, 0.0000000E+000, 0.0000000E+000, 0.0000000E+000, 0.0000000E+000, 0.0000000E+000, 0.0000000E+000, 0.0000000E+000, 0.214357
 759, 779.005, 0.214093, 8.35893e-19, 8.35691e-19, 8.29743e-19, 8.3693e-19, 0.214093, 0.0000000E+000, 0.0000000E+000, 0.0000000E+000, 0.0000000E+000, 0.0000000E+000, 0.0000000E+000, 0.0000000E+000, 0.214357
 762, 782.005, 0.214093, 8.35893e-19, 8.35691e-19, 8.29743e-19, 8.3693e-19, 0.214093, 0.0000000E+000, 0.0000000E+000, 0.0000000E+000, 0.0000000E+000, 0.0000000E+000, 0.0000000E+000, 0.0000000E+000, 0.214357
 765, 785.005, 0.214093, 8.35893e-19, 8.35691e-19, 8.29743e-19, 8.3693e-19, 0.214093, 0.0000000E+000, 0.0000000E+000, 0.0000000E+000, 0.0000000E+000, 0.0000000E+000, 0.0000000E+000, 0.0000000E+000, 0.214357
 768, 788.005, 0.214093, 8.35893e-19, 8.35691e-19, 8.29743e-19, 8.3693e-19, 0.214093, 0.0000000E+000, 0.0000000E+000, 0.0000000E+000, 0.0000000E+000, 0.0000000E+000, 0.0000000E+000, 0.0000000E+000, 0.214357
 771, 791.005, 0.214093, 8.35893e-19, 8.35691e-19, 8.29743e-19, 8.3693e-19, 0.214093, 0.0000000E+000, 0.0000000E+000, 0.0000000E+000, 0.0000000E+000, 0.0000000E+000, 0.0000000E+000, 0.0000000E+000, 0.214357
 774, 794.005, 0.214093, 8.35893e-19, 8.35691e-19, 8.29743e-19, 8.3693e-19, 0.214093, 0.0000000E+000, 0.0000000E+000, 0.0000000E+000, 0.0000000E+000, 0.0000000E+000, 0.0000000E+000, 0.0000000E+000, 0.214357
 777, 797.005, 0.214093, 8.35893e-19, 8.35691e-19, 8.29743e-19, 8.3693e-19, 0.214093, 0.0000000E+000, 0.0000000E+000, 0.0000000E+000, 0.0000000E+000, 0.0000000E+000, 0.0000000E+000, 0.0000000E+000, 0.214357
 780, 800.005, 0.214093, 8.35893e-19, 8.35691e-19, 8.29743e-19, 8.3693e-19, 0.214093, 0.0000000E+000, 0.0000000E+000, 0.0000000E+000, 0.0000000E+000, 0.0000000E+000, 0.0000000E+000, 0.0000000E+000, 0.214357